Task 1: above abroad acceptance active acuteness add additions admiration admitted admitting advantage advice afraid against age agreeable agreed agreement almost alone along am amiable amongst an answer any apartments are arrived as ask assurance astonished at attempted avoid bachelor be because become bed been before behaviour believed belonging better blessing boisterous branch breakfast breeding building but by called can carriage case certainty civil cold collected compact companions compass concerns connection contented continual conveying conviction court cousin curiosity day deal death decisively delivered demesne departure dependent depending did difficulty diminution direct direction disposed disposing distrusts do domestic early earnestly education edward either elderly elinor elsewhere enjoy enjoyment enough entrance especially esteems everything excellence exercise existence expect expenses extended extensive extent extremely extremity fact fat felicity few folly fortune found frankness friend friendship fulfilled furnished garden garret gay genius gentleman get given giving graceful grave great had ham handsome hard has having he heard hearted hearts her hill him his hoped horses hours how however humoured if ignorant immediate improved in incommode indeed inhabit inhabiting insisted interested introduced invited is it jennings joy ladies ladyship law learning led length less listening living looked lovers man manor marianne material means meant men merely merit merits merry met middleton misery miss moments moreover mr mrs music my nay never newspaper no noisy not now numerous of offer old on one opinions oppose or our out outward overcame packages part partiality passed peculiar people perceive period person pianoforte piqued plenty possible preference preferred preserved pretended principle principles produced pronounce properly prospect pure pursuit put questions really received recommend relation remainder repair replied residence resolution resolved rich roof rooms sake satisfied saw say scale secure seems sent servants set settle sex share she sigh silent simplicity sir situation smile so sociable sometimes son sooner sorry speaking spite spoil spoke sportsman sportsmen square stand studied subject sudden summer supported surrounded sussex taste tastes tedious tell ten terminated the their themselves there therefore these thing things think thirty thoroughly thoughts throwing to tolerably too total trees twenty unaffected understood unpleasant unpleasing unreserved unsatiable unwilling up use vanity view walls warmth was we weddings whatever which why widow will windows wishing within without wondered world wound wrong years yet you 
Task 2: {above=0.0017211703958691911, abroad=0.0017211703958691911, acceptance=0.0017211703958691911, active=0.0017211703958691911, acuteness=0.0017211703958691911, add=0.0068846815834767644, additions=0.0017211703958691911, admiration=0.0017211703958691911, admitted=0.0017211703958691911, admitting=0.0051635111876075735, advantage=0.0017211703958691911, advice=0.0034423407917383822, afraid=0.0017211703958691911, against=0.0017211703958691911, age=0.0017211703958691911, agreeable=0.0017211703958691911, agreed=0.0017211703958691911, agreement=0.0017211703958691911, almost=0.0017211703958691911, alone=0.0017211703958691911, along=0.0017211703958691911, am=0.0017211703958691911, amiable=0.0017211703958691911, amongst=0.0017211703958691911, an=0.01549053356282272, answer=0.0017211703958691911, any=0.0017211703958691911, apartments=0.0017211703958691911, are=0.010327022375215147, arrived=0.0017211703958691911, as=0.013769363166953529, ask=0.0034423407917383822, assurance=0.0017211703958691911, astonished=0.0017211703958691911, at=0.013769363166953529, attempted=0.0017211703958691911, avoid=0.0017211703958691911, bachelor=0.0017211703958691911, be=0.0034423407917383822, because=0.0017211703958691911, become=0.0017211703958691911, bed=0.0068846815834767644, been=0.0017211703958691911, before=0.0017211703958691911, behaviour=0.0017211703958691911, believed=0.0017211703958691911, belonging=0.0017211703958691911, better=0.0017211703958691911, blessing=0.0034423407917383822, boisterous=0.0017211703958691911, branch=0.0017211703958691911, breakfast=0.0034423407917383822, breeding=0.0017211703958691911, building=0.0017211703958691911, but=0.008605851979345954, by=0.0068846815834767644, called=0.0017211703958691911, can=0.0051635111876075735, carriage=0.0017211703958691911, case=0.0034423407917383822, certainty=0.0017211703958691911, civil=0.0017211703958691911, cold=0.0017211703958691911, collected=0.0017211703958691911, compact=0.0017211703958691911, companions=0.0017211703958691911, compass=0.0017211703958691911, concerns=0.0017211703958691911, connection=0.0034423407917383822, contented=0.0034423407917383822, continual=0.0034423407917383822, conveying=0.0034423407917383822, conviction=0.0017211703958691911, court=0.0017211703958691911, cousin=0.0017211703958691911, curiosity=0.0017211703958691911, day=0.0017211703958691911, deal=0.0017211703958691911, death=0.0034423407917383822, decisively=0.0017211703958691911, delivered=0.0017211703958691911, demesne=0.0017211703958691911, departure=0.0017211703958691911, dependent=0.008605851979345954, depending=0.0017211703958691911, did=0.0034423407917383822, difficulty=0.0017211703958691911, diminution=0.0034423407917383822, direct=0.0017211703958691911, direction=0.0017211703958691911, disposed=0.0017211703958691911, disposing=0.0017211703958691911, distrusts=0.0034423407917383822, do=0.020654044750430294, domestic=0.0017211703958691911, early=0.0017211703958691911, earnestly=0.0017211703958691911, education=0.0017211703958691911, edward=0.0017211703958691911, either=0.0017211703958691911, elderly=0.0017211703958691911, elinor=0.0017211703958691911, elsewhere=0.0017211703958691911, enjoy=0.0017211703958691911, enjoyment=0.0017211703958691911, enough=0.0017211703958691911, entrance=0.0017211703958691911, especially=0.0017211703958691911, esteems=0.0017211703958691911, everything=0.0017211703958691911, excellence=0.0017211703958691911, exercise=0.0017211703958691911, existence=0.0017211703958691911, expect=0.0017211703958691911, expenses=0.0017211703958691911, extended=0.0034423407917383822, extensive=0.0017211703958691911, extent=0.0017211703958691911, extremely=0.0017211703958691911, extremity=0.0017211703958691911, fact=0.0017211703958691911, fat=0.0034423407917383822, felicity=0.0017211703958691911, few=0.0017211703958691911, folly=0.0017211703958691911, fortune=0.0017211703958691911, found=0.0034423407917383822, frankness=0.0017211703958691911, friend=0.0017211703958691911, friendship=0.0017211703958691911, fulfilled=0.0034423407917383822, furnished=0.0017211703958691911, garden=0.0017211703958691911, garret=0.0017211703958691911, gay=0.0017211703958691911, genius=0.0017211703958691911, gentleman=0.0017211703958691911, get=0.0017211703958691911, given=0.0017211703958691911, giving=0.0017211703958691911, graceful=0.0017211703958691911, grave=0.0017211703958691911, great=0.0017211703958691911, had=0.0068846815834767644, ham=0.0034423407917383822, handsome=0.0017211703958691911, hard=0.0017211703958691911, has=0.0051635111876075735, having=0.0017211703958691911, he=0.012048192771084338, heard=0.0017211703958691911, hearted=0.0017211703958691911, hearts=0.0017211703958691911, her=0.0034423407917383822, hill=0.0017211703958691911, him=0.013769363166953529, his=0.010327022375215147, hoped=0.0051635111876075735, horses=0.0017211703958691911, hours=0.0017211703958691911, how=0.0051635111876075735, however=0.0017211703958691911, humoured=0.0034423407917383822, if=0.0034423407917383822, ignorant=0.0017211703958691911, immediate=0.0034423407917383822, improved=0.0017211703958691911, in=0.01721170395869191, incommode=0.0051635111876075735, indeed=0.0017211703958691911, inhabit=0.0017211703958691911, inhabiting=0.0017211703958691911, insisted=0.0017211703958691911, interested=0.0017211703958691911, introduced=0.0017211703958691911, invited=0.0017211703958691911, is=0.010327022375215147, it=0.0068846815834767644, jennings=0.0017211703958691911, joy=0.0017211703958691911, ladies=0.0017211703958691911, ladyship=0.0017211703958691911, law=0.0051635111876075735, learning=0.0017211703958691911, led=0.0017211703958691911, length=0.0017211703958691911, less=0.0017211703958691911, listening=0.0051635111876075735, living=0.0034423407917383822, looked=0.0017211703958691911, lovers=0.0017211703958691911, man=0.0034423407917383822, manor=0.0017211703958691911, marianne=0.0017211703958691911, material=0.0017211703958691911, means=0.0017211703958691911, meant=0.0017211703958691911, men=0.0017211703958691911, merely=0.0017211703958691911, merit=0.0017211703958691911, merits=0.0017211703958691911, merry=0.0017211703958691911, met=0.0017211703958691911, middleton=0.0034423407917383822, misery=0.0017211703958691911, miss=0.0017211703958691911, moments=0.0017211703958691911, moreover=0.0017211703958691911, mr=0.0034423407917383822, mrs=0.0068846815834767644, music=0.0017211703958691911, my=0.0034423407917383822, nay=0.0034423407917383822, never=0.0017211703958691911, newspaper=0.0017211703958691911, no=0.013769363166953529, noisy=0.0017211703958691911, not=0.0068846815834767644, now=0.0017211703958691911, numerous=0.0017211703958691911, of=0.008605851979345954, offer=0.0017211703958691911, old=0.0034423407917383822, on=0.010327022375215147, one=0.0034423407917383822, opinions=0.0017211703958691911, oppose=0.0017211703958691911, or=0.0034423407917383822, our=0.0017211703958691911, out=0.0017211703958691911, outward=0.0017211703958691911, overcame=0.0017211703958691911, packages=0.0017211703958691911, part=0.0017211703958691911, partiality=0.0034423407917383822, passed=0.0017211703958691911, peculiar=0.0017211703958691911, people=0.0034423407917383822, perceive=0.0034423407917383822, period=0.0017211703958691911, person=0.0017211703958691911, pianoforte=0.0017211703958691911, piqued=0.0017211703958691911, plenty=0.0017211703958691911, possible=0.0017211703958691911, preference=0.0017211703958691911, preferred=0.0017211703958691911, preserved=0.0017211703958691911, pretended=0.0017211703958691911, principle=0.0017211703958691911, principles=0.0017211703958691911, produced=0.0017211703958691911, pronounce=0.0017211703958691911, properly=0.0017211703958691911, prospect=0.0017211703958691911, pure=0.0017211703958691911, pursuit=0.0017211703958691911, put=0.0034423407917383822, questions=0.0017211703958691911, really=0.0034423407917383822, received=0.0017211703958691911, recommend=0.0017211703958691911, relation=0.0017211703958691911, remainder=0.0017211703958691911, repair=0.0017211703958691911, replied=0.0017211703958691911, residence=0.0017211703958691911, resolution=0.0017211703958691911, resolved=0.0017211703958691911, rich=0.0017211703958691911, roof=0.0017211703958691911, rooms=0.0017211703958691911, sake=0.0017211703958691911, satisfied=0.0017211703958691911, saw=0.0034423407917383822, say=0.0017211703958691911, scale=0.0017211703958691911, secure=0.0017211703958691911, seems=0.0017211703958691911, sent=0.0017211703958691911, servants=0.0017211703958691911, set=0.0017211703958691911, settle=0.0017211703958691911, sex=0.0051635111876075735, share=0.0017211703958691911, she=0.008605851979345954, sigh=0.0017211703958691911, silent=0.0017211703958691911, simplicity=0.0017211703958691911, sir=0.0068846815834767644, situation=0.0034423407917383822, smile=0.0017211703958691911, so=0.008605851979345954, sociable=0.0017211703958691911, sometimes=0.0017211703958691911, son=0.0017211703958691911, sooner=0.0017211703958691911, sorry=0.0017211703958691911, speaking=0.0017211703958691911, spite=0.0017211703958691911, spoil=0.0017211703958691911, spoke=0.0017211703958691911, sportsman=0.0034423407917383822, sportsmen=0.0017211703958691911, square=0.0017211703958691911, stand=0.0017211703958691911, studied=0.0017211703958691911, subject=0.0017211703958691911, sudden=0.0017211703958691911, summer=0.0017211703958691911, supported=0.0017211703958691911, surrounded=0.0017211703958691911, sussex=0.0017211703958691911, taste=0.0017211703958691911, tastes=0.0017211703958691911, tedious=0.0017211703958691911, tell=0.0017211703958691911, ten=0.0017211703958691911, terminated=0.0017211703958691911, the=0.0051635111876075735, their=0.0051635111876075735, themselves=0.0017211703958691911, there=0.0017211703958691911, therefore=0.0017211703958691911, these=0.0017211703958691911, thing=0.0017211703958691911, things=0.0017211703958691911, think=0.0034423407917383822, thirty=0.0034423407917383822, thoroughly=0.0017211703958691911, thoughts=0.0017211703958691911, throwing=0.0017211703958691911, to=0.0068846815834767644, tolerably=0.0017211703958691911, too=0.0034423407917383822, total=0.0017211703958691911, trees=0.0017211703958691911, twenty=0.0034423407917383822, unaffected=0.0034423407917383822, understood=0.0017211703958691911, unpleasant=0.0017211703958691911, unpleasing=0.0017211703958691911, unreserved=0.0017211703958691911, unsatiable=0.0017211703958691911, unwilling=0.0034423407917383822, up=0.008605851979345954, use=0.0034423407917383822, vanity=0.0017211703958691911, view=0.0017211703958691911, walls=0.0017211703958691911, warmth=0.0017211703958691911, was=0.0017211703958691911, we=0.0068846815834767644, weddings=0.0034423407917383822, whatever=0.0017211703958691911, which=0.0017211703958691911, why=0.0034423407917383822, widow=0.0017211703958691911, will=0.0017211703958691911, windows=0.0017211703958691911, wishing=0.0017211703958691911, within=0.0017211703958691911, without=0.0017211703958691911, wondered=0.0017211703958691911, world=0.0017211703958691911, wound=0.0034423407917383822, wrong=0.0017211703958691911, years=0.0017211703958691911, yet=0.0051635111876075735, you=0.0034423407917383822}
581
Task 3: Admiration has sir decisively excellence say everything inhabiting acceptance
Advice branch vanity or do thirty living
Agreed but expect repair she nay sir silent person
Amongst moments do in arrived at my replied
Answer living law things either sir bed length
Apartments thoroughly unsatiable terminated sex how themselves
Because add why not esteems amiable him
Bed connection unreserved preference partiality not unaffected
Blessing resolved peculiar fat graceful ham
Breakfast agreeable incommode departure it an
By ignorant at on wondered relation
By in cold no less been sent hard hill
Called square an in afraid direct
Certainty listening no no behaviour existence assurance situation is
Collected preserved are middleton dependent residence but him how
Companions understood is as especially pianoforte connection introduced
Continual so distrusts pronounce by unwilling listening
Court heard which up above hoped grave do
Death means up civil do an offer wound of
Dependent add middleton ask disposing admitting did sportsmen sportsman
Direction can dependent one bed situation attempted
Domestic perceive on an ladyship extended received do
Edward day almost active him friend thirty piqued
Enough at tastes really so cousin am of
Entrance be throwing he do blessing up
Expenses as material breeding insisted building to in
Extensive therefore supported by extremity of contented
Fat weddings servants but man believed prospect
Handsome weddings yet mrs you has carriage packages
He fact in we case miss sake
Hearts warmth in genius do garden advice mr it garret
Her pretended fulfilled extremely education yet
Him had wound use found hoped
Him son disposed produced humoured overcame she bachelor improved
His having within saw become ask passed misery giving
His she are man their spite avoid
Incommode he depending do frankness remainder to
Indeed on people do merits to
Interested the unaffected mrs law friendship add principles
Is against no he without subject
Is oppose no he summer lovers twenty in
Is pursuit compact demesne invited elderly be
It if sometimes furnished unwilling as additions so
Listening acuteness dependent at or an
Looked before we an on merely
Marianne numerous saw thoughts the humoured
Moreover is possible he admitted sociable concerns
Mrs exercise felicity had men speaking met
Nay newspaper can sportsman are admitting gentleman belonging his
No it as breakfast up conveying earnestly immediate principle
Noisy an their of meant
Not him old music think his found enjoy merry
Not his difficulty boisterous surrounded bed
Of distrusts immediate enjoyment curiosity do
Old there any widow law rooms
People as period twenty my extent as
Preferred joy agreement put continual elsewhere delivered now
Recommend questions get too fulfilled
Resolution diminution conviction so mr at unpleasing simplicity no
Rich deal mrs part led pure will but
Satisfied did one admitting incommode tolerably how are
Seems folly if in given scale
Set was better abroad ham plenty secure had horses
Sex contented dependent conveying advantage can use
She are ten hours wrong walls stand early
Sir sex opinions age properly extended
Smile spoke total few great had never their too
Sooner settle add put you sudden him
Studied however out wishing but inhabit fortune windows
Sussex on at really ladies in as elinor
These no death he at share alone
Thing do taste on we manor
To sorry world an at do spoil along
Unpleasant astonished an diminution up partiality
View him she roof tell her case has sigh
Why jennings our whatever his learning gay perceive
Years merit trees so think in hoped we as
Yet outward the him compass hearted are tedious
